STUDYID,DOMAIN,USUBJID,CMSEQ,CMTRT,CMMODIFY,CMDECOD,CMCAT,CMINDC,CMCLAS,CMCLASCD,CMDOSTXT,CMDOSU,CMDOSFRQ,CMROUTE,CMSTDTC,CMENDTC,CMSTDY,CMENDY,CMENRF
CDISC01,CM,CDISC01.100008,1,PROCARDIA XL,,NIFEDIPINE,CONCOMITANT MEDICATIONS,HYPERTENSION,CALCIUM CHANNEL BLOCKERS,C08,60,mg,Q24H,ORAL,1986,,-5963,,AFTER
CDISC01,CM,CDISC01.100008,2,GLYBURIDE,,GLIBENCLAMIDE,CONCOMITANT MEDICATIONS,DIABETES,DRUGS USED IN DIABETES,A10,5,mg,BID,ORAL,1987,,-5598,,AFTER
CDISC01,CM,CDISC01.100008,3,ACCUPRIL,,QUINAPRIL HYDROCHLORIDE,CONCOMITANT MEDICATIONS,HYPERTENSION,AGENTS ACTING ON THE RENIN-ANGIOTENSIN SYSTEM,C09,20,mg,Q24H,ORAL,1995,,-2676,,AFTER
CDISC01,CM,CDISC01.100008,4,CALCIUM,,CALCIUM,CONCOMITANT MEDICATIONS,SUPPLEMENT,MINERAL SUPPLEMENTS,A12,600,mg,Q24H,ORAL,1995,,-2676,,AFTER
CDISC01,CM,CDISC01.100008,5,GLUCOPHAGE,,METFORMIN HYDROCHLORIDE,CONCOMITANT MEDICATIONS,DIABETES,DRUGS USED IN DIABETES,A10,1000,mg,Q24H,ORAL,1995,,-2676,,AFTER
CDISC01,CM,CDISC01.100008,6,GLUCOPHAGE,,METFORMIN HYDROCHLORIDE,CONCOMITANT MEDICATIONS,DIABETES,DRUGS USED IN DIABETES,A10,500,mg,Q24H,ORAL,1995,,-2676,,AFTER
CDISC01,CM,CDISC01.100008,7,MAGNESIUM,,MAGNESIUM,CONCOMITANT MEDICATIONS,SUPPLEMENT,MINERAL SUPPLEMENTS,A12,400,mg,Q24H,ORAL,1995,,-2676,,AFTER
CDISC01,CM,CDISC01.100008,8,MULTIVITAMIN,,MULTIVITAMINS,CONCOMITANT MEDICATIONS,SUPPLEMENT,VITAMINS,A11,1,TABLET,Q24H,ORAL,1995,,-2676,,AFTER
CDISC01,CM,CDISC01.100008,9,PREVACID,,LANSOPRAZOLE,CONCOMITANT MEDICATIONS,INDIGESTION,DRUGS FOR ACID RELATED DISORDERS,A02,30,mg,Q24H,ORAL,1998,,-1580,,AFTER
CDISC01,CM,CDISC01.100008,10,ASPIRIN,,ACETYLSALICYLIC ACID,CONCOMITANT MEDICATIONS,PREVENTATIVE,ANALGESICS,N02,81,mg,Q24H,ORAL,2000-10,,-910,,AFTER
CDISC01,CM,CDISC01.100008,11,LEVOXYL,,LEVOTHYROXINE SODIUM,CONCOMITANT MEDICATIONS,HYPOTHYROIDISM,THYROID THERAPY,H03,50,mg,Q24H,ORAL,2002,,-119,,AFTER
CDISC01,CM,CDISC01.100014,1,LANSOPRAZOLE,,LANSOPRAZOLE,CONCOMITANT MEDICATIONS,REFLUX,DRUGS FOR ACID RELATED DISORDERS,A02,30,mg,Q24H,ORAL,2003-12-31,2004-02-06,78,115,
CDISC01,CM,CDISC01.100014,2,MIDAZOLAM,,MIDAZOLAM,CONCOMITANT MEDICATIONS,HAVING UPPER ENDOSCOPY,PSYCHOLEPTICS,N05,1,mg,ONCE,INTRAVENOUS,2004-02-05,2004-02-05,114,114,
CDISC01,CM,CDISC01.100014,3,COMPAZINE,,PROCHLORPERAZINE EDISYLATE,CONCOMITANT MEDICATIONS,VOMITING,ANTIEMETICS AND ANTINAUSEANTS,A04,10,mg,PRN,ORAL,2004-02-06,2004-02-08,115,117,
CDISC01,CM,CDISC01.100014,4,PANTOPRAZOLE-SODIUM,PANTOPRAZOLE SODIUM,PANTOPRAZOLE SODIUM,CONCOMITANT MEDICATIONS,REFLUX,DRUGS FOR ACID RELATED DISORDERS,A02,40,mg,Q24H,ORAL,2004-02-09,,118,,AFTER
CDISC01,CM,CDISC01.200001,1,LEVOTHYROXINE-SODIUM,LEVOTHYROXINE SODIUM,LEVOTHYROXINE SODIUM,CONCOMITANT MEDICATIONS,THYROID HORMONE REPLACEMENT,THYROID THERAPY,H03,.125,mg,Q24H,ORAL,1960,,-15613,,AFTER
CDISC01,CM,CDISC01.200001,2,CENTRUM,,CENTRUM,CONCOMITANT MEDICATIONS,NUTRITIONAL SUPPLEMENT,VITAMINS,A11,1,TABLET,Q24H,ORAL,2001,,-638,,AFTER
CDISC01,CM,CDISC01.200001,3,GARLIC,,GARLIC,CONCOMITANT MEDICATIONS,NUTRITIONAL SUPPLEMENT,ALL OTHER THERAPEUTIC PRODUCTS,V03,1,TABLET,Q24H,ORAL,2001,,-638,,AFTER
CDISC01,CM,CDISC01.200001,4,GINKO BILOBA,,GINKGO BILOBA,CONCOMITANT MEDICATIONS,NUTRITIONAL SUPPLEMENT,ALL OTHER THERAPEUTIC PRODUCTS,V03,1,TABLET,Q24H,ORAL,2001,,-638,,AFTER
CDISC01,CM,CDISC01.200001,5,OSCAL,,CALCIUM CARBONATE,CONCOMITANT MEDICATIONS,NUTRITIONAL SUPPLEMENT,MINERAL SUPPLEMENTS,A12,1,TABLET,Q24H,ORAL,2001,,-638,,AFTER
CDISC01,CM,CDISC01.200001,6,"VITAMIN ""E""",VITAMIN E,TOCOPHEROL,CONCOMITANT MEDICATIONS,NUTRITIONAL SUPPLEMENT,VITAMINS,A11,400,IU,Q24H,ORAL,2001,,-638,,AFTER
CDISC01,CM,CDISC01.200001,7,DONEPEZIL-HYDROCHLORIDE,DONEPEZIL HYDROCHLORIDE,DONEPEZIL HYDROCHLORIDE,PSYCHOTROPHIC DRUG TREATMENT HISTORY,ALZHEIMER'S DISEASE,PSYCHOANALEPTICS,N06,5,mg,Q24H,ORAL,2001-09-01,2001-09-15,-759,-745,
CDISC01,CM,CDISC01.200001,8,RIVASTIGMINE TARTRATE,,RIVASTIGMINE TARTRATE,PSYCHOTROPHIC DRUG TREATMENT HISTORY,ALZHEIMER'S DISEASE,PSYCHOANALEPTICS,N06,2.5,mg,BID,ORAL,2001-09-16,2001-09-22,-744,-738,
CDISC01,CM,CDISC01.200001,9,RISPERIDONE,,RISPERIDONE,PSYCHOTROPHIC DRUG TREATMENT HISTORY,INSOMNIA,PSYCHOLEPTICS,N05,1,mg,BID,ORAL,2003-06,2003-06,-92,-92,
CDISC01,CM,CDISC01.200001,10,TRAZODONE-HYDROCHLORIDE,TRAZODONE HYDROCHLORIDE,TRAZODONE HYDROCHLORIDE,PSYCHOTROPHIC DRUG TREATMENT HISTORY,INSOMNIA,PSYCHOANALEPTICS,N06,25,mg,Q24H,ORAL,2003-06,2003-08-26,-92,-35,
CDISC01,CM,CDISC01.200001,11,ZOLPIDEM TARTRATE,,ZOLPIDEM TARTRATE,CONCOMITANT MEDICATIONS,INSOMNIA,PSYCHOLEPTICS,N05,2.5,mg,Q24H,ORAL,2003-10-16,2003-10-17,17,18,
CDISC01,CM,CDISC01.200001,12,ZOLPIDEM TARTRATE,,ZOLPIDEM TARTRATE,CONCOMITANT MEDICATIONS,INSOMNIA,PSYCHOLEPTICS,N05,5,mg,Q24H,ORAL,2003-10-19,2003-10-19,20,20,
CDISC01,CM,CDISC01.200001,13,INFLUENZA VACCINE,,INFLUENZA VACCINE,CONCOMITANT MEDICATIONS,INFLUENZA PROPHYLAXIS,VACCINES,J07,1,VIAL,ONCE,SUBCUTANEOUS,2003-11-07,2003-11-07,39,39,
CDISC01,CM,CDISC01.200001,14,ALKA SELTZER PLUS,,ALKA-SELTZER PLUS,CONCOMITANT MEDICATIONS,COLD PROPHYLAXIS,COUGH AND COLD PREPARATIONS,R05,2,TABLET,Q24H,ORAL,2003-11-11,2003-11-11,43,43,
CDISC01,CM,CDISC01.200002,1,DONEPEZIL-HYDROCHLORIDE,DONEPEZIL HYDROCHLORIDE,DONEPEZIL HYDROCHLORIDE,CONCOMITANT MEDICATIONS,ALZHEIMER'S DISEASE,PSYCHOANALEPTICS,N06,10,mg,Q24H,ORAL,2001-12,2003-09-04,-648,-36,
CDISC01,CM,CDISC01.200002,2,DONEPEZIL-HYDROCHLORIDE,DONEPEZIL HYDROCHLORIDE,DONEPEZIL,PSYCHOTROPHIC DRUG TREATMENT HISTORY,ALZHEIMERS DISEASE,PSYCHOANALEPTICS,N06,10,mg,Q24H,ORAL,2001-12,2003-09-04,-648,-36,
CDISC01,CM,CDISC01.200002,3,MULTIVITAMIN,,MULTIVITAMINS,CONCOMITANT MEDICATIONS,NUTRITIONAL SUPPLEMENT,VITAMINS,A11,1,TABLET,Q24H,ORAL,2003-06,,-102,,AFTER
CDISC01,CM,CDISC01.200002,4,INFLUENZA VACCINE,,INFLUENZA VACCINE,CONCOMITANT MEDICATIONS,INFLUENZA PROPHYLAXIS,VACCINES,J07,1,VIAL,ONCE,SUBCUTANEOUS,2003-11-15,2003-11-15,37,37,
CDISC01,CM,CDISC01.200005,1,DONEPEZIL-HYDROCHLORIDE,DONEPEZIL HYDROCHLORIDE,DONEPEZIL,CONCOMITANT MEDICATIONS,ALZHEIMER'S DISEASE,PSYCHOANALEPTICS,N06,UNK,mg,Q24H,ORAL,2001,2003-09-14,,,
CDISC01,CM,CDISC01.200005,2,CALCIUM,,CALCIUM,CONCOMITANT MEDICATIONS,NUTRITIONAL SUPPLEMENT,MINERAL SUPPLEMENTS,A12,1,TABLET,Q24H,ORAL,2002,,,,AFTER
CDISC01,CM,CDISC01.200005,3,IBUPROFEN,,IBUPROFEN,CONCOMITANT MEDICATIONS,BACK PAIN,ANTIINFLAMMATORY AND ANTIRHEUMATIC PRODUCTS,M01,400,mg,PRN,ORAL,2002,,,,AFTER
