STUDYID,DOMAIN,USUBJID,EGSEQ,EGSPID,EGTESTCD,EGTEST,EGPOS,EGORRES,EGORRESU,EGSTRESC,EGSTRESN,EGSTRESU,EGBLFL,EGDRVFL,EGEVAL,VISITNUM,VISIT,VISITDY,EGDTC,EGDY
CDISC01,EG,CDISC01.100008,1,ECG-06,INTP,Interpretation,SUPINE,ABNORMAL,,ABNORMAL,,,Y,,INVESTIGATOR,1,SCREEN,-13,2003-04-15,-14
CDISC01,EG,CDISC01.100008,2,ECG-06,INTP,Interpretation,SUPINE,ABNORMAL,,ABNORMAL,,,,,INVESTIGATOR,10,WEEK 24,169,2003-10-13,168
CDISC01,EG,CDISC01.100008,3,ECG-03,PRMEAN,Summary (Mean) PR Duration,SUPINE,200,msec,200,200,msec,Y,,,1,SCREEN,-13,2003-04-15,-14
CDISC01,EG,CDISC01.100008,4,ECG-03,PRMEAN,Summary (Mean) PR Duration,SUPINE,182,msec,182,182,msec,,,,10,WEEK 24,169,2003-10-13,168
CDISC01,EG,CDISC01.100008,5,ECG-02,QRSDUR,Summary (Mean) QRS Duration,SUPINE,92,msec,92,92,msec,Y,,,1,SCREEN,-13,2003-04-15,-14
CDISC01,EG,CDISC01.100008,6,ECG-02,QRSDUR,Summary (Mean) QRS Duration,SUPINE,92,msec,92,92,msec,,,,10,WEEK 24,169,2003-10-13,168
CDISC01,EG,CDISC01.100008,7,ECG-07,QTCB,QTcB - Bazett's Correction Formula,SUPINE,,,426.2,426.2,msec,Y,Y,,1,SCREEN,-13,2003-04-15,-14
CDISC01,EG,CDISC01.100008,8,ECG-07,QTCB,QTcB - Bazett's Correction Formula,SUPINE,,,421.4,421.4,msec,,Y,,10,WEEK 24,169,2003-10-13,168
CDISC01,EG,CDISC01.100008,9,ECG-08,QTCF,QTcF - Fridericia's Correction Formula,SUPINE,,,401.4,401.4,msec,Y,Y,,1,SCREEN,-13,2003-04-15,-14
CDISC01,EG,CDISC01.100008,10,ECG-08,QTCF,QTcF - Fridericia's Correction Formula,SUPINE,,,404.3,404.3,msec,,Y,,10,WEEK 24,169,2003-10-13,168
CDISC01,EG,CDISC01.100008,11,ECG-04,QTMEAN,Summary (Mean) QT Duration,SUPINE,356,msec,356,356,msec,Y,,,1,SCREEN,-13,2003-04-15,-14
CDISC01,EG,CDISC01.100008,12,ECG-04,QTMEAN,Summary (Mean) QT Duration,SUPINE,372,msec,372,372,msec,,,,10,WEEK 24,169,2003-10-13,168
CDISC01,EG,CDISC01.100008,13,ECG-10,VRMEAN,Summary (Mean) Ventricular Rate,SUPINE,86,BEATS/MIN,86,86,BEATS/MIN,Y,,,1,SCREEN,-13,2003-04-15,-14
CDISC01,EG,CDISC01.100008,14,ECG-10,VRMEAN,Summary (Mean) Ventricular Rate,SUPINE,77,BEATS/MIN,77,77,BEATS/MIN,,,,10,WEEK 24,169,2003-10-13,168
CDISC01,EG,CDISC01.100014,1,ECG-06,INTP,Interpretation,SUPINE,ABNORMAL,,ABNORMAL,,,Y,,INVESTIGATOR,1,SCREEN,-13,2003-10-06,-9
CDISC01,EG,CDISC01.100014,2,ECG-06,INTP,Interpretation,SUPINE,ABNORMAL,,ABNORMAL,,,,,INVESTIGATOR,10,WEEK 24,169,2004-03-30,168
CDISC01,EG,CDISC01.100014,3,ECG-03,PRMEAN,Summary (Mean) PR Duration,SUPINE,142,msec,142,142,msec,Y,,,1,SCREEN,-13,2003-10-06,-9
CDISC01,EG,CDISC01.100014,4,ECG-03,PRMEAN,Summary (Mean) PR Duration,SUPINE,134,msec,134,134,msec,,,,10,WEEK 24,169,2004-03-30,168
CDISC01,EG,CDISC01.100014,5,ECG-02,QRSDUR,Summary (Mean) QRS Duration,SUPINE,82,msec,82,82,msec,Y,,,1,SCREEN,-13,2003-10-06,-9
CDISC01,EG,CDISC01.100014,6,ECG-02,QRSDUR,Summary (Mean) QRS Duration,SUPINE,84,msec,84,84,msec,,,,10,WEEK 24,169,2004-03-30,168
CDISC01,EG,CDISC01.100014,7,ECG-07,QTCB,QTcB - Bazett's Correction Formula,SUPINE,,,424.7,424.7,msec,Y,Y,,1,SCREEN,-13,2003-10-06,-9
CDISC01,EG,CDISC01.100014,8,ECG-07,QTCB,QTcB - Bazett's Correction Formula,SUPINE,,,441.1,441.1,msec,,Y,,10,WEEK 24,169,2004-03-30,168
CDISC01,EG,CDISC01.100014,9,ECG-08,QTCF,QTcF - Fridericia's Correction Formula,SUPINE,,,414.9,414.9,msec,Y,Y,,1,SCREEN,-13,2003-10-06,-9
CDISC01,EG,CDISC01.100014,10,ECG-08,QTCF,QTcF - Fridericia's Correction Formula,SUPINE,,,420.4,420.4,msec,,Y,,10,WEEK 24,169,2004-03-30,168
CDISC01,EG,CDISC01.100014,11,ECG-04,QTMEAN,Summary (Mean) QT Duration,SUPINE,396,msec,396,396,msec,Y,,,1,SCREEN,-13,2003-10-06,-9
CDISC01,EG,CDISC01.100014,12,ECG-04,QTMEAN,Summary (Mean) QT Duration,SUPINE,382,msec,382,382,msec,,,,10,WEEK 24,169,2004-03-30,168
CDISC01,EG,CDISC01.100014,13,ECG-10,VRMEAN,Summary (Mean) Ventricular Rate,SUPINE,69,BEATS/MIN,69,69,BEATS/MIN,Y,,,1,SCREEN,-13,2003-10-06,-9
CDISC01,EG,CDISC01.100014,14,ECG-10,VRMEAN,Summary (Mean) Ventricular Rate,SUPINE,80,BEATS/MIN,80,80,BEATS/MIN,,,,10,WEEK 24,169,2004-03-30,168
CDISC01,EG,CDISC01.200001,1,ECG-06,INTP,Interpretation,SUPINE,NORMAL,,NORMAL,,,Y,,INVESTIGATOR,1,SCREEN,-13,2003-09-09,-21
CDISC01,EG,CDISC01.200001,2,ECG-06,INTP,Interpretation,SUPINE,NORMAL,,NORMAL,,,,,INVESTIGATOR,10,WEEK 24,169,2004-02-02,126
CDISC01,EG,CDISC01.200001,3,ECG-03,PRMEAN,Summary (Mean) PR Duration,SUPINE,140,msec,140,140,msec,Y,,,1,SCREEN,-13,2003-09-09,-21
CDISC01,EG,CDISC01.200001,4,ECG-03,PRMEAN,Summary (Mean) PR Duration,SUPINE,160,msec,160,160,msec,,,,10,WEEK 24,169,2004-02-02,126
CDISC01,EG,CDISC01.200001,5,ECG-02,QRSDUR,Summary (Mean) QRS Duration,SUPINE,80,msec,80,80,msec,Y,,,1,SCREEN,-13,2003-09-09,-21
CDISC01,EG,CDISC01.200001,6,ECG-02,QRSDUR,Summary (Mean) QRS Duration,SUPINE,80,msec,80,80,msec,,,,10,WEEK 24,169,2004-02-02,126
CDISC01,EG,CDISC01.200001,7,ECG-07,QTCB,QTcB - Bazett's Correction Formula,SUPINE,,,403.3,403.3,msec,Y,Y,,1,SCREEN,-13,2003-09-09,-21
CDISC01,EG,CDISC01.200001,8,ECG-07,QTCB,QTcB - Bazett's Correction Formula,SUPINE,,,464.8,464.8,msec,,Y,,10,WEEK 24,169,2004-02-02,126
CDISC01,EG,CDISC01.200001,9,ECG-08,QTCF,QTcF - Fridericia's Correction Formula,SUPINE,,,402.2,402.2,msec,Y,Y,,1,SCREEN,-13,2003-09-09,-21
CDISC01,EG,CDISC01.200001,10,ECG-08,QTCF,QTcF - Fridericia's Correction Formula,SUPINE,,,442.1,442.1,msec,,Y,,10,WEEK 24,169,2004-02-02,126
CDISC01,EG,CDISC01.200001,11,ECG-04,QTMEAN,Summary (Mean) QT Duration,SUPINE,400,msec,400,400,msec,Y,,,1,SCREEN,-13,2003-09-09,-21
CDISC01,EG,CDISC01.200001,12,ECG-04,QTMEAN,Summary (Mean) QT Duration,SUPINE,400,msec,400,400,msec,,,,10,WEEK 24,169,2004-02-02,126
CDISC01,EG,CDISC01.200001,13,ECG-10,VRMEAN,Summary (Mean) Ventricular Rate,SUPINE,61,BEATS/MIN,61,61,BEATS/MIN,Y,,,1,SCREEN,-13,2003-09-09,-21
CDISC01,EG,CDISC01.200001,14,ECG-10,VRMEAN,Summary (Mean) Ventricular Rate,SUPINE,81,BEATS/MIN,81,81,BEATS/MIN,,,,10,WEEK 24,169,2004-02-02,126
CDISC01,EG,CDISC01.200002,1,ECG-06,INTP,Interpretation,SUPINE,ABNORMAL,,ABNORMAL,,,Y,,INVESTIGATOR,1,SCREEN,-13,2003-09-19,-21
CDISC01,EG,CDISC01.200002,2,ECG-06,INTP,Interpretation,SUPINE,ABNORMAL,,ABNORMAL,,,,,INVESTIGATOR,10,WEEK 24,169,2004-03-29,172
CDISC01,EG,CDISC01.200002,3,ECG-03,PRMEAN,Summary (Mean) PR Duration,SUPINE,120,msec,120,120,msec,Y,,,1,SCREEN,-13,2003-09-19,-21
CDISC01,EG,CDISC01.200002,4,ECG-03,PRMEAN,Summary (Mean) PR Duration,SUPINE,140,msec,140,140,msec,,,,10,WEEK 24,169,2004-03-29,172
CDISC01,EG,CDISC01.200002,5,ECG-02,QRSDUR,Summary (Mean) QRS Duration,SUPINE,80,msec,80,80,msec,Y,,,1,SCREEN,-13,2003-09-19,-21
CDISC01,EG,CDISC01.200002,6,ECG-02,QRSDUR,Summary (Mean) QRS Duration,SUPINE,100,msec,100,100,msec,,,,10,WEEK 24,169,2004-03-29,172
CDISC01,EG,CDISC01.200002,7,ECG-07,QTCB,QTcB - Bazett's Correction Formula,SUPINE,,,389.9,389.9,msec,Y,Y,,1,SCREEN,-13,2003-09-19,-21
CDISC01,EG,CDISC01.200002,8,ECG-07,QTCB,QTcB - Bazett's Correction Formula,SUPINE,,,399.8,399.8,msec,,Y,,10,WEEK 24,169,2004-03-29,172
CDISC01,EG,CDISC01.200002,9,ECG-08,QTCF,QTcF - Fridericia's Correction Formula,SUPINE,,,393.2,393.2,msec,Y,Y,,1,SCREEN,-13,2003-09-19,-21
CDISC01,EG,CDISC01.200002,10,ECG-08,QTCF,QTcF - Fridericia's Correction Formula,SUPINE,,,386.1,386.1,msec,,Y,,10,WEEK 24,169,2004-03-29,172
CDISC01,EG,CDISC01.200002,11,ECG-04,QTMEAN,Summary (Mean) QT Duration,SUPINE,400,msec,400,400,msec,Y,,,1,SCREEN,-13,2003-09-19,-21
CDISC01,EG,CDISC01.200002,12,ECG-04,QTMEAN,Summary (Mean) QT Duration,SUPINE,360,msec,360,360,msec,,,,10,WEEK 24,169,2004-03-29,172
CDISC01,EG,CDISC01.200002,13,ECG-10,VRMEAN,Summary (Mean) Ventricular Rate,SUPINE,57,BEATS/MIN,57,57,BEATS/MIN,Y,,,1,SCREEN,-13,2003-09-19,-21
CDISC01,EG,CDISC01.200002,14,ECG-10,VRMEAN,Summary (Mean) Ventricular Rate,SUPINE,74,BEATS/MIN,74,74,BEATS/MIN,,,,10,WEEK 24,169,2004-03-29,172
