STUDYID,DOMAIN,USUBJID,MHSEQ,MHTERM,MHCAT,MHPRESP,MHOCCUR,MHBODSYS,MHDTC,MHSTDTC,MHENRF
CDISC01,MH,CDISC01.100008,1,ARTHRITIS,MEDICAL AND SURGICAL HISTORY,,,Musculoskeletal,2003-04-15,1996,DURING/AFTER
CDISC01,MH,CDISC01.100008,2,HEARING AIDS,MEDICAL AND SURGICAL HISTORY,,,Eyes-Ears-Nose-Throat,2003-04-15,1998,DURING/AFTER
CDISC01,MH,CDISC01.100008,3,DEPRESSION OF ALZHEIMER'S DISEASE,PSYCHIATRIC HISTORY,Y,Y,,2003-04-15,2003-04-11,
CDISC01,MH,CDISC01.100008,4,PROBABLE ALZHEIMER'S DISEASE,PSYCHIATRIC HISTORY,Y,Y,,2003-04-15,2003-04-04,
CDISC01,MH,CDISC01.100014,1,SLOW GAIT,MEDICAL AND SURGICAL HISTORY,,,Neurological,2003-10-06,2001,DURING/AFTER
CDISC01,MH,CDISC01.100014,2,DEPRESSION OF ALZHEIMER'S DISEASE,PSYCHIATRIC HISTORY,Y,Y,,2003-10-06,2003-10-01,
CDISC01,MH,CDISC01.100014,3,PROBABLE ALZHEIMER'S DISEASE,PSYCHIATRIC HISTORY,Y,Y,,2003-10-06,2001,
CDISC01,MH,CDISC01.200001,1,HEARING AIDS BOTH EARS,MEDICAL AND SURGICAL HISTORY,,,Eyes-Ears-Nose-Throat,2003-09-09,1962,DURING/AFTER
CDISC01,MH,CDISC01.200001,2,THYROIDECTOMY,MEDICAL AND SURGICAL HISTORY,,,Endocrine-Metabolic,2003-09-09,1959,BEFORE
CDISC01,MH,CDISC01.200001,3,DEPRESSION OF ALZHEIMER'S DISEASE,PSYCHIATRIC HISTORY,Y,Y,,2003-09-09,2002-09,
CDISC01,MH,CDISC01.200001,4,PROBABLE ALZHEIMER'S DISEASE,PSYCHIATRIC HISTORY,Y,Y,,2003-09-09,2001-06,
CDISC01,MH,CDISC01.200002,1,HYSTERECTOMY,MEDICAL AND SURGICAL HISTORY,,,Genitourinary,2003-09-18,1981,BEFORE
CDISC01,MH,CDISC01.200002,2,DEPRESSION OF ALZHEIMER'S DISEASE,PSYCHIATRIC HISTORY,Y,Y,,2003-09-18,2001-07,
CDISC01,MH,CDISC01.200002,3,PROBABLE ALZHEIMER'S DISEASE,PSYCHIATRIC HISTORY,Y,Y,,2003-09-18,2000-07,
CDISC01,MH,CDISC01.200005,1,RECURRENT BACK PAIN,MEDICAL AND SURGICAL HISTORY,,,Musculoskeletal,2003-09-15,1957,DURING/AFTER
CDISC01,MH,CDISC01.200005,2,TUBAL LIGATION,MEDICAL AND SURGICAL HISTORY,,,Genitourinary,2003-09-15,1999,BEFORE
CDISC01,MH,CDISC01.200005,3,DEPRESSION OF ALZHEIMER'S DISEASE,PSYCHIATRIC HISTORY,Y,N,,2003-09-15,,
CDISC01,MH,CDISC01.200005,4,PROBABLE ALZHEIMER'S DISEASE,PSYCHIATRIC HISTORY,Y,Y,,2003-09-15,2001,
