STUDYID,DOMAIN,USUBJID,PESEQ,PETESTCD,PETEST,PEORRES,PESTRESC,VISITNUM,VISIT,VISITDY,PEDTC,PEDY
CDISC01,PE,CDISC01.100008,1,PE01,Appearance/Skin,NORMAL,NORMAL,1,SCREEN,-13,2003-04-15,-14
CDISC01,PE,CDISC01.100008,2,PE01,Appearance/Skin,NORMAL,NORMAL,10,WEEK 24,169,2003-10-13,168
CDISC01,PE,CDISC01.100008,3,PE02,Head/Neck (Including Thyroid),NORMAL,NORMAL,1,SCREEN,-13,2003-04-15,-14
CDISC01,PE,CDISC01.100008,4,PE02,Head/Neck (Including Thyroid),NORMAL,NORMAL,10,WEEK 24,169,2003-10-13,168
CDISC01,PE,CDISC01.100008,5,PE03,Eyes-Ears-Nose-Throat,NORMAL,NORMAL,1,SCREEN,-13,2003-04-15,-14
CDISC01,PE,CDISC01.100008,6,PE03,Eyes-Ears-Nose-Throat,NORMAL,NORMAL,10,WEEK 24,169,2003-10-13,168
CDISC01,PE,CDISC01.100008,7,PE04,Cardiovascular,NORMAL,NORMAL,1,SCREEN,-13,2003-04-15,-14
CDISC01,PE,CDISC01.100008,8,PE04,Cardiovascular,NORMAL,NORMAL,10,WEEK 24,169,2003-10-13,168
CDISC01,PE,CDISC01.100008,9,PE05,Pulmonary,NORMAL,NORMAL,1,SCREEN,-13,2003-04-15,-14
CDISC01,PE,CDISC01.100008,10,PE05,Pulmonary,NORMAL,NORMAL,10,WEEK 24,169,2003-10-13,168
CDISC01,PE,CDISC01.100008,11,PE06,Abdomen,NORMAL,NORMAL,1,SCREEN,-13,2003-04-15,-14
CDISC01,PE,CDISC01.100008,12,PE06,Abdomen,NORMAL,NORMAL,10,WEEK 24,169,2003-10-13,168
CDISC01,PE,CDISC01.100008,13,PE07,Neurological,NORMAL,NORMAL,1,SCREEN,-13,2003-04-15,-14
CDISC01,PE,CDISC01.100008,14,PE07,Neurological,NORMAL,NORMAL,10,WEEK 24,169,2003-10-13,168
CDISC01,PE,CDISC01.100008,15,PE08,Musculoskeletal,NORMAL,NORMAL,1,SCREEN,-13,2003-04-15,-14
CDISC01,PE,CDISC01.100008,16,PE08,Musculoskeletal,NORMAL,NORMAL,10,WEEK 24,169,2003-10-13,168
CDISC01,PE,CDISC01.100014,1,PE01,Appearance/Skin,NORMAL,NORMAL,1,SCREEN,-13,2003-10-06,-9
CDISC01,PE,CDISC01.100014,2,PE01,Appearance/Skin,NORMAL,NORMAL,10,WEEK 24,169,2004-03-30,168
CDISC01,PE,CDISC01.100014,3,PE02,Head/Neck (Including Thyroid),NORMAL,NORMAL,1,SCREEN,-13,2003-10-06,-9
CDISC01,PE,CDISC01.100014,4,PE02,Head/Neck (Including Thyroid),NORMAL,NORMAL,10,WEEK 24,169,2004-03-30,168
CDISC01,PE,CDISC01.100014,5,PE03,Eyes-Ears-Nose-Throat,WEARS GLASSES,WEARS GLASSES,1,SCREEN,-13,2003-10-06,-9
CDISC01,PE,CDISC01.100014,6,PE03,Eyes-Ears-Nose-Throat,WEARS GLASSES,WEARS GLASSES,10,WEEK 24,169,2004-03-30,168
CDISC01,PE,CDISC01.100014,7,PE04,Cardiovascular,NORMAL,NORMAL,1,SCREEN,-13,2003-10-06,-9
CDISC01,PE,CDISC01.100014,8,PE04,Cardiovascular,NORMAL,NORMAL,10,WEEK 24,169,2004-03-30,168
CDISC01,PE,CDISC01.100014,9,PE05,Pulmonary,NORMAL,NORMAL,1,SCREEN,-13,2003-10-06,-9
CDISC01,PE,CDISC01.100014,10,PE05,Pulmonary,NORMAL,NORMAL,10,WEEK 24,169,2004-03-30,168
CDISC01,PE,CDISC01.100014,11,PE06,Abdomen,NORMAL,NORMAL,1,SCREEN,-13,2003-10-06,-9
CDISC01,PE,CDISC01.100014,12,PE06,Abdomen,NORMAL,NORMAL,10,WEEK 24,169,2004-03-30,168
CDISC01,PE,CDISC01.100014,13,PE07,Neurological,SLOW GAIT,SLOW GAIT,1,SCREEN,-13,2003-10-06,-9
CDISC01,PE,CDISC01.100014,14,PE07,Neurological,SLOW GAIT,SLOW GAIT,10,WEEK 24,169,2004-03-30,168
CDISC01,PE,CDISC01.100014,15,PE08,Musculoskeletal,NORMAL,NORMAL,1,SCREEN,-13,2003-10-06,-9
CDISC01,PE,CDISC01.100014,16,PE08,Musculoskeletal,NORMAL,NORMAL,10,WEEK 24,169,2004-03-30,168
CDISC01,PE,CDISC01.200001,1,PE01,Appearance/Skin,NORMAL,NORMAL,1,SCREEN,-13,2003-09-09,-21
CDISC01,PE,CDISC01.200001,2,PE01,Appearance/Skin,NORMAL,NORMAL,10,WEEK 24,169,2004-02-02,126
CDISC01,PE,CDISC01.200001,3,PE02,Head/Neck (Including Thyroid),NORMAL,NORMAL,1,SCREEN,-13,2003-09-09,-21
CDISC01,PE,CDISC01.200001,4,PE02,Head/Neck (Including Thyroid),NORMAL,NORMAL,10,WEEK 24,169,2004-02-02,126
CDISC01,PE,CDISC01.200001,5,PE03,Eyes-Ears-Nose-Throat,NORMAL,NORMAL,1,SCREEN,-13,2003-09-09,-21
CDISC01,PE,CDISC01.200001,6,PE03,Eyes-Ears-Nose-Throat,NORMAL,NORMAL,10,WEEK 24,169,2004-02-02,126
CDISC01,PE,CDISC01.200001,7,PE04,Cardiovascular,NORMAL,NORMAL,1,SCREEN,-13,2003-09-09,-21
CDISC01,PE,CDISC01.200001,8,PE04,Cardiovascular,NORMAL,NORMAL,10,WEEK 24,169,2004-02-02,126
CDISC01,PE,CDISC01.200001,9,PE05,Pulmonary,NORMAL,NORMAL,1,SCREEN,-13,2003-09-09,-21
CDISC01,PE,CDISC01.200001,10,PE05,Pulmonary,NORMAL,NORMAL,10,WEEK 24,169,2004-02-02,126
CDISC01,PE,CDISC01.200001,11,PE06,Abdomen,NORMAL,NORMAL,1,SCREEN,-13,2003-09-09,-21
CDISC01,PE,CDISC01.200001,12,PE06,Abdomen,NORMAL,NORMAL,10,WEEK 24,169,2004-02-02,126
CDISC01,PE,CDISC01.200001,13,PE07,Neurological,NORMAL,NORMAL,1,SCREEN,-13,2003-09-09,-21
CDISC01,PE,CDISC01.200001,14,PE07,Neurological,NORMAL,NORMAL,10,WEEK 24,169,2004-02-02,126
CDISC01,PE,CDISC01.200001,15,PE08,Musculoskeletal,NORMAL,NORMAL,1,SCREEN,-13,2003-09-09,-21
CDISC01,PE,CDISC01.200001,16,PE08,Musculoskeletal,NORMAL,NORMAL,10,WEEK 24,169,2004-02-02,126
CDISC01,PE,CDISC01.200002,1,PE01,Appearance/Skin,SENILE KERATOSES,SENILE KERATOSES,1,SCREEN,-13,2003-09-18,-22
CDISC01,PE,CDISC01.200002,2,PE01,Appearance/Skin,NORMAL,NORMAL,10,WEEK 24,169,2004-03-29,172
CDISC01,PE,CDISC01.200002,3,PE02,Head/Neck (Including Thyroid),NORMAL,NORMAL,1,SCREEN,-13,2003-09-18,-22
CDISC01,PE,CDISC01.200002,4,PE02,Head/Neck (Including Thyroid),NORMAL,NORMAL,10,WEEK 24,169,2004-03-29,172
CDISC01,PE,CDISC01.200002,5,PE03,Eyes-Ears-Nose-Throat,NORMAL,NORMAL,1,SCREEN,-13,2003-09-18,-22
CDISC01,PE,CDISC01.200002,6,PE03,Eyes-Ears-Nose-Throat,NORMAL,NORMAL,10,WEEK 24,169,2004-03-29,172
CDISC01,PE,CDISC01.200002,7,PE04,Cardiovascular,NORMAL,NORMAL,1,SCREEN,-13,2003-09-18,-22
CDISC01,PE,CDISC01.200002,8,PE04,Cardiovascular,SOFT SYSTOLIC MURMUR,SOFT SYSTOLIC MURMUR,10,WEEK 24,169,2004-03-29,172
CDISC01,PE,CDISC01.200002,9,PE05,Pulmonary,NORMAL,NORMAL,1,SCREEN,-13,2003-09-18,-22
CDISC01,PE,CDISC01.200002,10,PE05,Pulmonary,NORMAL,NORMAL,10,WEEK 24,169,2004-03-29,172
CDISC01,PE,CDISC01.200002,11,PE06,Abdomen,NORMAL,NORMAL,1,SCREEN,-13,2003-09-18,-22
CDISC01,PE,CDISC01.200002,12,PE06,Abdomen,NORMAL,NORMAL,10,WEEK 24,169,2004-03-29,172
CDISC01,PE,CDISC01.200002,13,PE07,Neurological,NORMAL,NORMAL,1,SCREEN,-13,2003-09-18,-22
CDISC01,PE,CDISC01.200002,14,PE07,Neurological,MILD TREMOR FINGER TO NOSE,MILD TREMOR FINGER TO NOSE,10,WEEK 24,169,2004-03-29,172
CDISC01,PE,CDISC01.200002,15,PE08,Musculoskeletal,NORMAL,NORMAL,1,SCREEN,-13,2003-09-18,-22
CDISC01,PE,CDISC01.200002,16,PE08,Musculoskeletal,NORMAL,NORMAL,10,WEEK 24,169,2004-03-29,172
CDISC01,PE,CDISC01.200002,17,PE09,Other,GENERAL DENUTRITION,GENERAL DENUTRITION,10,WEEK 24,169,2004-03-29,172
