STUDYID,DOMAIN,USUBJID,QSSEQ,QSTESTCD,QSTEST,QSCAT,QSORRES,QSSTRESC,QSSTRESN,QSBLFL,VISITNUM,VISIT,VISITDY,QSDTC,QSDY
CDISC01,QS,CDISC01.100008,81,MMSEA1,Orientation time score,MINI MENTAL STATE EXAMINATION (MMSE),4,4,4,,1,SCREEN,-13,2003-04-15,-14
CDISC01,QS,CDISC01.100008,82,MMSEA1,Orientation time score,MINI MENTAL STATE EXAMINATION (MMSE),3,3,3,Y,2,BASELINE,1,2003-04-29,1
CDISC01,QS,CDISC01.100008,83,MMSEA1,Orientation time score,MINI MENTAL STATE EXAMINATION (MMSE),5,5,5,,10,WEEK 24,169,2003-10-13,168
CDISC01,QS,CDISC01.100008,84,MMSEA2,Orientation place score,MINI MENTAL STATE EXAMINATION (MMSE),4,4,4,,1,SCREEN,-13,2003-04-15,-14
CDISC01,QS,CDISC01.100008,85,MMSEA2,Orientation place score,MINI MENTAL STATE EXAMINATION (MMSE),4,4,4,Y,2,BASELINE,1,2003-04-29,1
CDISC01,QS,CDISC01.100008,86,MMSEA2,Orientation place score,MINI MENTAL STATE EXAMINATION (MMSE),5,5,5,,10,WEEK 24,169,2003-10-13,168
CDISC01,QS,CDISC01.100008,87,MMSEB,Registration,MINI MENTAL STATE EXAMINATION (MMSE),3,3,3,,1,SCREEN,-13,2003-04-15,-14
CDISC01,QS,CDISC01.100008,88,MMSEB,Registration,MINI MENTAL STATE EXAMINATION (MMSE),3,3,3,Y,2,BASELINE,1,2003-04-29,1
CDISC01,QS,CDISC01.100008,89,MMSEB,Registration,MINI MENTAL STATE EXAMINATION (MMSE),3,3,3,,10,WEEK 24,169,2003-10-13,168
CDISC01,QS,CDISC01.100008,90,MMSEC,Attention and Calculation,MINI MENTAL STATE EXAMINATION (MMSE),5,5,5,,1,SCREEN,-13,2003-04-15,-14
CDISC01,QS,CDISC01.100008,91,MMSEC,Attention and Calculation,MINI MENTAL STATE EXAMINATION (MMSE),5,5,5,Y,2,BASELINE,1,2003-04-29,1
CDISC01,QS,CDISC01.100008,92,MMSEC,Attention and Calculation,MINI MENTAL STATE EXAMINATION (MMSE),5,5,5,,10,WEEK 24,169,2003-10-13,168
CDISC01,QS,CDISC01.100008,93,MMSED,Recall,MINI MENTAL STATE EXAMINATION (MMSE),0,0,0,,1,SCREEN,-13,2003-04-15,-14
CDISC01,QS,CDISC01.100008,94,MMSED,Recall,MINI MENTAL STATE EXAMINATION (MMSE),2,2,2,Y,2,BASELINE,1,2003-04-29,1
CDISC01,QS,CDISC01.100008,95,MMSED,Recall,MINI MENTAL STATE EXAMINATION (MMSE),2,2,2,,10,WEEK 24,169,2003-10-13,168
CDISC01,QS,CDISC01.100008,96,MMSEET,Language,MINI MENTAL STATE EXAMINATION (MMSE),8,8,8,,1,SCREEN,-13,2003-04-15,-14
CDISC01,QS,CDISC01.100008,97,MMSEET,Language,MINI MENTAL STATE EXAMINATION (MMSE),7,7,7,Y,2,BASELINE,1,2003-04-29,1
CDISC01,QS,CDISC01.100008,98,MMSEET,Language,MINI MENTAL STATE EXAMINATION (MMSE),9,9,9,,10,WEEK 24,169,2003-10-13,168
CDISC01,QS,CDISC01.100008,99,MMSETOT,Total Score,MINI MENTAL STATE EXAMINATION (MMSE),24,24,24,,1,SCREEN,-13,2003-04-15,-14
CDISC01,QS,CDISC01.100008,100,MMSETOT,Total Score,MINI MENTAL STATE EXAMINATION (MMSE),24,24,24,Y,2,BASELINE,1,2003-04-29,1
CDISC01,QS,CDISC01.100008,101,MMSETOT,Total Score,MINI MENTAL STATE EXAMINATION (MMSE),29,29,29,,10,WEEK 24,169,2003-10-13,168
CDISC01,QS,CDISC01.100014,81,MMSEA1,Orientation time score,MINI MENTAL STATE EXAMINATION (MMSE),2,2,2,,1,SCREEN,-13,2003-10-06,-9
CDISC01,QS,CDISC01.100014,82,MMSEA1,Orientation time score,MINI MENTAL STATE EXAMINATION (MMSE),2,2,2,Y,2,BASELINE,1,2003-10-15,1
CDISC01,QS,CDISC01.100014,83,MMSEA1,Orientation time score,MINI MENTAL STATE EXAMINATION (MMSE),3,3,3,,10,WEEK 24,169,2004-03-30,168
CDISC01,QS,CDISC01.100014,84,MMSEA2,Orientation place score,MINI MENTAL STATE EXAMINATION (MMSE),2,2,2,,1,SCREEN,-13,2003-10-06,-9
CDISC01,QS,CDISC01.100014,85,MMSEA2,Orientation place score,MINI MENTAL STATE EXAMINATION (MMSE),4,4,4,Y,2,BASELINE,1,2003-10-15,1
CDISC01,QS,CDISC01.100014,86,MMSEA2,Orientation place score,MINI MENTAL STATE EXAMINATION (MMSE),3,3,3,,10,WEEK 24,169,2004-03-30,168
CDISC01,QS,CDISC01.100014,87,MMSEB,Registration,MINI MENTAL STATE EXAMINATION (MMSE),3,3,3,,1,SCREEN,-13,2003-10-06,-9
CDISC01,QS,CDISC01.100014,88,MMSEB,Registration,MINI MENTAL STATE EXAMINATION (MMSE),3,3,3,Y,2,BASELINE,1,2003-10-15,1
CDISC01,QS,CDISC01.100014,89,MMSEB,Registration,MINI MENTAL STATE EXAMINATION (MMSE),3,3,3,,10,WEEK 24,169,2004-03-30,168
CDISC01,QS,CDISC01.100014,90,MMSEC,Attention and Calculation,MINI MENTAL STATE EXAMINATION (MMSE),0,0,0,,1,SCREEN,-13,2003-10-06,-9
CDISC01,QS,CDISC01.100014,91,MMSEC,Attention and Calculation,MINI MENTAL STATE EXAMINATION (MMSE),0,0,0,Y,2,BASELINE,1,2003-10-15,1
CDISC01,QS,CDISC01.100014,92,MMSEC,Attention and Calculation,MINI MENTAL STATE EXAMINATION (MMSE),0,0,0,,10,WEEK 24,169,2004-03-30,168
CDISC01,QS,CDISC01.100014,93,MMSED,Recall,MINI MENTAL STATE EXAMINATION (MMSE),1,1,1,,1,SCREEN,-13,2003-10-06,-9
CDISC01,QS,CDISC01.100014,94,MMSED,Recall,MINI MENTAL STATE EXAMINATION (MMSE),3,3,3,Y,2,BASELINE,1,2003-10-15,1
CDISC01,QS,CDISC01.100014,95,MMSED,Recall,MINI MENTAL STATE EXAMINATION (MMSE),0,0,0,,10,WEEK 24,169,2004-03-30,168
CDISC01,QS,CDISC01.100014,96,MMSEET,Language,MINI MENTAL STATE EXAMINATION (MMSE),8,8,8,,1,SCREEN,-13,2003-10-06,-9
CDISC01,QS,CDISC01.100014,97,MMSEET,Language,MINI MENTAL STATE EXAMINATION (MMSE),8,8,8,Y,2,BASELINE,1,2003-10-15,1
CDISC01,QS,CDISC01.100014,98,MMSEET,Language,MINI MENTAL STATE EXAMINATION (MMSE),8,8,8,,10,WEEK 24,169,2004-03-30,168
CDISC01,QS,CDISC01.100014,99,MMSETOT,Total Score,MINI MENTAL STATE EXAMINATION (MMSE),16,16,16,,1,SCREEN,-13,2003-10-06,-9
CDISC01,QS,CDISC01.100014,100,MMSETOT,Total Score,MINI MENTAL STATE EXAMINATION (MMSE),20,20,20,Y,2,BASELINE,1,2003-10-15,1
CDISC01,QS,CDISC01.100014,101,MMSETOT,Total Score,MINI MENTAL STATE EXAMINATION (MMSE),17,17,17,,10,WEEK 24,169,2004-03-30,168
CDISC01,QS,CDISC01.200001,81,MMSEA1,Orientation time score,MINI MENTAL STATE EXAMINATION (MMSE),2,2,2,,1,SCREEN,-13,2003-09-09,-21
CDISC01,QS,CDISC01.200001,82,MMSEA1,Orientation time score,MINI MENTAL STATE EXAMINATION (MMSE),3,3,3,Y,2,BASELINE,1,2003-09-30,1
CDISC01,QS,CDISC01.200001,83,MMSEA1,Orientation time score,MINI MENTAL STATE EXAMINATION (MMSE),3,3,3,,10,WEEK 24,169,2004-02-02,126
CDISC01,QS,CDISC01.200001,84,MMSEA2,Orientation place score,MINI MENTAL STATE EXAMINATION (MMSE),2,2,2,,1,SCREEN,-13,2003-09-09,-21
CDISC01,QS,CDISC01.200001,85,MMSEA2,Orientation place score,MINI MENTAL STATE EXAMINATION (MMSE),3,3,3,Y,2,BASELINE,1,2003-09-30,1
CDISC01,QS,CDISC01.200001,86,MMSEA2,Orientation place score,MINI MENTAL STATE EXAMINATION (MMSE),3,3,3,,10,WEEK 24,169,2004-02-02,126
CDISC01,QS,CDISC01.200001,87,MMSEB,Registration,MINI MENTAL STATE EXAMINATION (MMSE),3,3,3,,1,SCREEN,-13,2003-09-09,-21
CDISC01,QS,CDISC01.200001,88,MMSEB,Registration,MINI MENTAL STATE EXAMINATION (MMSE),3,3,3,Y,2,BASELINE,1,2003-09-30,1
CDISC01,QS,CDISC01.200001,89,MMSEB,Registration,MINI MENTAL STATE EXAMINATION (MMSE),3,3,3,,10,WEEK 24,169,2004-02-02,126
CDISC01,QS,CDISC01.200001,90,MMSEC,Attention and Calculation,MINI MENTAL STATE EXAMINATION (MMSE),3,3,3,,1,SCREEN,-13,2003-09-09,-21
CDISC01,QS,CDISC01.200001,91,MMSEC,Attention and Calculation,MINI MENTAL STATE EXAMINATION (MMSE),2,2,2,Y,2,BASELINE,1,2003-09-30,1
CDISC01,QS,CDISC01.200001,92,MMSEC,Attention and Calculation,MINI MENTAL STATE EXAMINATION (MMSE),4,4,4,,10,WEEK 24,169,2004-02-02,126
CDISC01,QS,CDISC01.200001,93,MMSED,Recall,MINI MENTAL STATE EXAMINATION (MMSE),0,0,0,,1,SCREEN,-13,2003-09-09,-21
CDISC01,QS,CDISC01.200001,94,MMSED,Recall,MINI MENTAL STATE EXAMINATION (MMSE),0,0,0,Y,2,BASELINE,1,2003-09-30,1
CDISC01,QS,CDISC01.200001,95,MMSED,Recall,MINI MENTAL STATE EXAMINATION (MMSE),0,0,0,,10,WEEK 24,169,2004-02-02,126
CDISC01,QS,CDISC01.200001,96,MMSEET,Language,MINI MENTAL STATE EXAMINATION (MMSE),6,6,6,,1,SCREEN,-13,2003-09-09,-21
CDISC01,QS,CDISC01.200001,97,MMSEET,Language,MINI MENTAL STATE EXAMINATION (MMSE),7,7,7,Y,2,BASELINE,1,2003-09-30,1
CDISC01,QS,CDISC01.200001,98,MMSEET,Language,MINI MENTAL STATE EXAMINATION (MMSE),8,8,8,,10,WEEK 24,169,2004-02-02,126
CDISC01,QS,CDISC01.200001,99,MMSETOT,Total Score,MINI MENTAL STATE EXAMINATION (MMSE),16,16,16,,1,SCREEN,-13,2003-09-09,-21
CDISC01,QS,CDISC01.200001,100,MMSETOT,Total Score,MINI MENTAL STATE EXAMINATION (MMSE),18,18,18,Y,2,BASELINE,1,2003-09-30,1
CDISC01,QS,CDISC01.200001,101,MMSETOT,Total Score,MINI MENTAL STATE EXAMINATION (MMSE),21,21,21,,10,WEEK 24,169,2004-02-02,126
CDISC01,QS,CDISC01.200002,81,MMSEA1,Orientation time score,MINI MENTAL STATE EXAMINATION (MMSE),1,1,1,,1,SCREEN,-13,2003-09-18,-22
CDISC01,QS,CDISC01.200002,82,MMSEA1,Orientation time score,MINI MENTAL STATE EXAMINATION (MMSE),3,3,3,Y,2,BASELINE,1,2003-10-10,1
CDISC01,QS,CDISC01.200002,83,MMSEA1,Orientation time score,MINI MENTAL STATE EXAMINATION (MMSE),0,0,0,,10,WEEK 24,169,2004-03-29,172
CDISC01,QS,CDISC01.200002,84,MMSEA2,Orientation place score,MINI MENTAL STATE EXAMINATION (MMSE),4,4,4,,1,SCREEN,-13,2003-09-18,-22
CDISC01,QS,CDISC01.200002,85,MMSEA2,Orientation place score,MINI MENTAL STATE EXAMINATION (MMSE),4,4,4,Y,2,BASELINE,1,2003-10-10,1
CDISC01,QS,CDISC01.200002,86,MMSEA2,Orientation place score,MINI MENTAL STATE EXAMINATION (MMSE),4,4,4,,10,WEEK 24,169,2004-03-29,172
CDISC01,QS,CDISC01.200002,87,MMSEB,Registration,MINI MENTAL STATE EXAMINATION (MMSE),3,3,3,,1,SCREEN,-13,2003-09-18,-22
CDISC01,QS,CDISC01.200002,88,MMSEB,Registration,MINI MENTAL STATE EXAMINATION (MMSE),3,3,3,Y,2,BASELINE,1,2003-10-10,1
CDISC01,QS,CDISC01.200002,89,MMSEB,Registration,MINI MENTAL STATE EXAMINATION (MMSE),3,3,3,,10,WEEK 24,169,2004-03-29,172
CDISC01,QS,CDISC01.200002,90,MMSEC,Attention and Calculation,MINI MENTAL STATE EXAMINATION (MMSE),2,2,2,,1,SCREEN,-13,2003-09-18,-22
CDISC01,QS,CDISC01.200002,91,MMSEC,Attention and Calculation,MINI MENTAL STATE EXAMINATION (MMSE),2,2,2,Y,2,BASELINE,1,2003-10-10,1
CDISC01,QS,CDISC01.200002,92,MMSEC,Attention and Calculation,MINI MENTAL STATE EXAMINATION (MMSE),5,5,5,,10,WEEK 24,169,2004-03-29,172
CDISC01,QS,CDISC01.200002,93,MMSED,Recall,MINI MENTAL STATE EXAMINATION (MMSE),0,0,0,,1,SCREEN,-13,2003-09-18,-22
CDISC01,QS,CDISC01.200002,94,MMSED,Recall,MINI MENTAL STATE EXAMINATION (MMSE),0,0,0,Y,2,BASELINE,1,2003-10-10,1
CDISC01,QS,CDISC01.200002,95,MMSED,Recall,MINI MENTAL STATE EXAMINATION (MMSE),0,0,0,,10,WEEK 24,169,2004-03-29,172
CDISC01,QS,CDISC01.200002,96,MMSEET,Language,MINI MENTAL STATE EXAMINATION (MMSE),8,8,8,,1,SCREEN,-13,2003-09-18,-22
CDISC01,QS,CDISC01.200002,97,MMSEET,Language,MINI MENTAL STATE EXAMINATION (MMSE),8,8,8,Y,2,BASELINE,1,2003-10-10,1
CDISC01,QS,CDISC01.200002,98,MMSEET,Language,MINI MENTAL STATE EXAMINATION (MMSE),7,7,7,,10,WEEK 24,169,2004-03-29,172
CDISC01,QS,CDISC01.200002,99,MMSETOT,Total Score,MINI MENTAL STATE EXAMINATION (MMSE),18,18,18,,1,SCREEN,-13,2003-09-18,-22
CDISC01,QS,CDISC01.200002,100,MMSETOT,Total Score,MINI MENTAL STATE EXAMINATION (MMSE),20,20,20,Y,2,BASELINE,1,2003-10-10,1
CDISC01,QS,CDISC01.200002,101,MMSETOT,Total Score,MINI MENTAL STATE EXAMINATION (MMSE),19,19,19,,10,WEEK 24,169,2004-03-29,172
