STUDYID,DOMAIN,USUBJID,SCSEQ,SCTESTCD,SCTEST,SCORRES,SCSTRESC,SCDTC,SCDY
CDISC01,SC,CDISC01.100008,1,EDLEVEL,Education Level,HIGH SCHOOL GRADUATE/GED,HIGH SCHOOL GRADUATE/GED,2003-04-15,-14
CDISC01,SC,CDISC01.100008,2,MARISTAT,Marital Status,DIVORCED,DIVORCED,2003-04-15,-14
CDISC01,SC,CDISC01.100008,3,SUBJINIT,Subject Initials,AAB,AAB,2003-04-15,-14
CDISC01,SC,CDISC01.100014,1,EDLEVEL,Education Level,SOME COLLEGE,SOME COLLEGE,2003-10-06,-9
CDISC01,SC,CDISC01.100014,2,MARISTAT,Marital Status,MARRIED,MARRIED,2003-10-06,-9
CDISC01,SC,CDISC01.100014,3,SUBJINIT,Subject Initials,AAS,AAS,2003-10-06,-9
CDISC01,SC,CDISC01.200001,1,EDLEVEL,Education Level,HIGH SCHOOL GRADUATE/GED,HIGH SCHOOL GRADUATE/GED,2003-09-09,-21
CDISC01,SC,CDISC01.200001,2,MARISTAT,Marital Status,MARRIED,MARRIED,2003-09-09,-21
CDISC01,SC,CDISC01.200001,3,SUBJINIT,Subject Initials,AAX,AAX,2003-09-09,-21
CDISC01,SC,CDISC01.200002,1,EDLEVEL,Education Level,COLLEGE GRADUATE,COLLEGE GRADUATE,2003-09-18,-22
CDISC01,SC,CDISC01.200002,2,MARISTAT,Marital Status,WIDOWED,WIDOWED,2003-09-18,-22
CDISC01,SC,CDISC01.200002,3,SUBJINIT,Subject Initials,AAL,AAL,2003-09-18,-22
CDISC01,SC,CDISC01.200005,1,EDLEVEL,Education Level,GRADUATE DEGREE & BEYOND,GRADUATE DEGREE & BEYOND,2003-09-15,
CDISC01,SC,CDISC01.200005,2,MARISTAT,Marital Status,MARRIED,MARRIED,2003-09-15,
CDISC01,SC,CDISC01.200005,3,SUBJINIT,Subject Initials,AAO,AAO,2003-09-15,
