STUDYID,DOMAIN,USUBJID,SESEQ,ETCD,ELEMENT,SESTDTC,SEENDTC,TAETORD
CDISC01,SE,CDISC01.100008,1,SCREEN,Screening,2003-04-15,2003-04-29,1
CDISC01,SE,CDISC01.100008,2,WOND10,Treatment 10 mg Miracle Drug,2003-04-29,2003-10-12,2
CDISC01,SE,CDISC01.100008,3,EOS,End of Study,2003-10-12,2003-10-12,3
CDISC01,SE,CDISC01.100014,1,SCREEN,Screening,2003-10-06,2003-10-15,1
CDISC01,SE,CDISC01.100014,2,WOND20,Treatment 20 mg Miracle Drug,2003-10-15,2004-03-29,2
CDISC01,SE,CDISC01.100014,3,EOS,End of Study,2004-03-29,2004-03-29,3
CDISC01,SE,CDISC01.200001,1,SCREEN,Screening,2003-09-09,2003-09-30,1
CDISC01,SE,CDISC01.200001,2,PLACEBO,Treatment Placebo,2003-09-30,2004-01-19,2
CDISC01,SE,CDISC01.200001,3,EOS,End of Study,2004-02-02,2004-02-02,3
CDISC01,SE,CDISC01.200002,1,SCREEN,Screening,2003-09-18,2003-10-10,1
CDISC01,SE,CDISC01.200002,2,WOND10,Treatment 10 mg Miracle Drug,2003-10-10,2004-03-28,2
CDISC01,SE,CDISC01.200002,3,EOS,End of Study,2004-03-28,2004-03-28,3
CDISC01,SE,CDISC01.200005,1,SCREEN,Screening,2003-09-15,2003-09-15,1
CDISC01,SE,CDISC01.200005,2,EOS,End of Study,2003-09-15,2003-09-15,3
