STUDYID,RDOMAIN,USUBJID,IDVAR,IDVARVAL,QNAM,QLABEL,QVAL,QORIG,QEVAL
CDISC01,QS,CDISC01.100008,QSCAT,CLINICAL GLOBAL IMPRESSIONS (CGI-I),RTRINIT,Rater Initials,JSR,CRF,
CDISC01,QS,CDISC01.200001,QSCAT,CLINICAL GLOBAL IMPRESSIONS (CGI-I),RTRINIT,Rater Initials,TWL,CRF,
CDISC01,QS,CDISC01.200002,QSCAT,CLINICAL GLOBAL IMPRESSIONS (CGI-I),RTRINIT,Rater Initials,BNJ,CRF,
