STUDYID,RDOMAIN,USUBJID,IDVAR,IDVARVAL,QNAM,QLABEL,QVAL,QORIG,QEVAL
CDISC01,EG,CDISC01.100008,EGSEQ,1,EGCLSIG,Clinically Significant,N,CRF,INVESTIGATOR
CDISC01,EG,CDISC01.100008,EGSEQ,2,EGCLSIG,Clinically Significant,N,CRF,INVESTIGATOR
CDISC01,EG,CDISC01.100014,EGSEQ,1,EGCLSIG,Clinically Significant,N,CRF,INVESTIGATOR
CDISC01,EG,CDISC01.100014,EGSEQ,2,EGCLSIG,Clinically Significant,N,CRF,INVESTIGATOR
CDISC01,EG,CDISC01.200002,EGSEQ,1,EGCLSIG,Clinically Significant,N,CRF,INVESTIGATOR
CDISC01,EG,CDISC01.200002,EGSEQ,2,EGCLSIG,Clinically Significant,N,CRF,INVESTIGATOR
