STUDYID,RDOMAIN,USUBJID,IDVAR,IDVARVAL,QNAM,QLABEL,QVAL,QORIG,QEVAL
CDISC01,QS,CDISC01.100008,QSCAT,MINI MENTAL STATE EXAMINATION (MMSE),RTRINIT,Rater Initials,JSR,CRF,
CDISC01,QS,CDISC01.100014,QSCAT,MINI MENTAL STATE EXAMINATION (MMSE),RTRINIT,Rater Initials,M-T,CRF,
CDISC01,QS,CDISC01.200001,QSCAT,MINI MENTAL STATE EXAMINATION (MMSE),RTRINIT,Rater Initials,KMJ,CRF,
CDISC01,QS,CDISC01.200002,QSCAT,MINI MENTAL STATE EXAMINATION (MMSE),RTRINIT,Rater Initials,KMJ,CRF,
