STUDYID,RDOMAIN,USUBJID,IDVAR,IDVARVAL,QNAM,QLABEL,QVAL,QORIG,QEVAL
CDISC01,LB,CDISC01.100008,LBSEQ,10,LBCLSIG,Clinically Significant,Y,Derived,CLINICAL STUDY SPONSOR
CDISC01,LB,CDISC01.100008,LBSEQ,12,LBCLSIG,Clinically Significant,Y,Derived,CLINICAL STUDY SPONSOR
